SpectraSuite Data File
++++++++++++++++++++++++++++++++++++
Date: Fri Jul 17 04:24:51 CEST 2009
User: hertz
Dark Spectrum Present: No
Reference Spectrum Present: No
Number of Sampled Component Spectra: 1
Spectrometers: USB4C01162
Integration Time (usec): 100000 (USB4C01162)
Spectra Averaged: 1 (USB4C01162)
Boxcar Smoothing: 0 (USB4C01162)
Correct for Electrical Dark: No (USB4C01162)
Strobe/Lamp Enabled: No (USB4C01162)
Correct for Detector Non-linearity: No (USB4C01162)
Correct for Stray Light: No (USB4C01162)
Number of Pixels in Processed Spectrum: 3648
>>>>>Begin Processed Spectral Data<<<<<
178.80	1472.49
179.01	1472.49
179.23	1472.49
179.44	1533.93
179.66	1476.59
179.88	1937.38
180.09	1976.29
180.31	1916.90
180.52	2131.94
180.74	1783.78
180.95	1890.28
181.17	1873.89
181.38	2297.82
181.60	1804.26
181.81	1718.25
182.03	1886.18
182.24	1976.29
182.46	1869.80
182.67	2514.91
182.89	3278.80
183.10	3243.98
183.32	2961.36
183.53	3098.58
183.75	3610.57
183.96	3278.80
184.18	3035.09
184.40	3026.90
184.61	3428.30
184.83	3418.06
185.04	3104.72
185.26	3069.91
185.47	3289.04
185.69	3473.36
185.90	3184.59
186.12	3043.28
186.33	3303.37
186.55	3272.65
186.76	3137.49
186.98	3076.05
187.19	3315.66
187.41	3393.48
187.62	2981.84
187.84	3106.77
188.05	3491.79
188.27	3438.54
188.48	3071.95
188.70	3141.58
188.91	3289.04
189.13	3114.96
189.34	3223.50
189.56	3049.43
189.77	3301.33
189.99	3225.55
190.20	3121.10
190.42	3024.85
190.63	3456.97
190.85	3342.28
191.06	3145.68
191.27	3063.76
191.49	3143.63
191.70	3221.45
191.92	3176.40
192.13	3045.33
192.35	3352.52
192.56	3409.87
192.78	3137.49
192.99	3137.49
193.21	3286.99
193.42	3215.31
193.64	3254.22
193.85	3219.41
194.07	3493.83
194.28	3336.14
194.50	3086.29
194.71	3180.50
194.93	3483.59
195.14	3459.02
195.36	3190.74
195.57	3305.42
195.78	3567.56
196.00	3327.95
196.21	3182.54
196.43	3311.57
196.64	3274.70
196.86	3491.79
197.07	3205.07
197.29	2990.03
197.50	3463.12
197.72	3338.19
197.93	3084.24
198.15	3313.61
198.36	3571.66
198.57	3459.02
198.79	3200.98
199.00	3123.15
199.22	3340.24
199.43	3446.73
199.65	3168.21
199.86	3229.65
200.08	3370.96
200.29	3631.05
200.51	3184.59
200.72	3180.50
200.93	3209.17
201.15	3473.36
201.36	3098.58
201.58	3114.96
201.79	3305.42
202.01	3694.54
202.22	3211.22
202.44	3278.80
202.65	3348.43
202.86	3497.93
203.08	3248.08
203.29	3184.59
203.51	3366.86
203.72	3315.66
203.94	3248.08
204.15	3219.41
204.36	3350.48
204.58	3491.79
204.79	3217.36
205.01	3049.43
205.22	3442.64
205.44	3356.62
205.65	3203.02
205.86	3223.50
206.08	3440.59
206.29	3463.12
206.51	3211.22
206.72	3237.84
206.94	3555.27
207.15	3522.51
207.36	3106.77
207.58	3221.45
207.79	3381.20
208.01	3434.44
208.22	3280.85
208.43	3170.26
208.65	3459.02
208.86	3411.92
209.08	3330.00
209.29	3233.74
209.51	3669.96
209.72	3354.57
209.93	3284.94
210.15	3200.98
210.36	3393.48
210.58	3373.00
210.79	3049.43
211.00	3209.17
211.22	3452.88
211.43	3995.59
211.65	3250.13
211.86	3217.36
212.07	3563.47
212.29	3346.38
212.50	3100.62
212.72	3311.57
212.93	3704.78
213.14	3497.93
213.36	3317.71
213.57	3098.58
213.79	3473.36
214.00	3397.58
214.21	3301.33
214.43	3258.32
214.64	3469.26
214.85	3606.47
215.07	3260.37
215.28	3272.65
215.50	3626.95
215.71	3411.92
215.92	3145.68
216.14	3348.43
216.35	3440.59
216.57	3389.39
216.78	3354.57
216.99	3217.36
217.21	3504.07
217.42	3424.20
217.63	3176.40
217.85	3336.14
218.06	3432.40
218.28	3551.18
218.49	3299.28
218.70	3243.98
218.92	3643.34
219.13	3420.11
219.34	3364.81
219.56	3186.64
219.77	3465.16
219.98	3315.66
220.20	3354.57
220.41	3221.45
220.63	3508.17
220.84	3524.55
221.05	3317.71
221.27	3127.25
221.48	3762.12
221.69	3352.52
221.91	3227.60
222.12	3338.19
222.33	3502.03
222.55	3403.72
222.76	3196.88
222.97	3336.14
223.19	3442.64
223.40	3573.71
223.62	3233.74
223.83	3450.83
224.04	3657.67
224.26	3346.38
224.47	3217.36
224.68	3184.59
224.90	3612.62
225.11	3540.94
225.32	3260.37
225.54	3286.99
225.75	3405.77
225.96	3418.06
226.18	3274.70
226.39	3172.30
226.60	3436.49
226.82	3465.16
227.03	3301.33
227.24	3282.89
227.46	3502.03
227.67	3459.02
227.88	3440.59
228.10	3330.00
228.31	3538.89
228.52	3477.45
228.74	3313.61
228.95	3297.23
229.16	3629.00
229.38	3409.87
229.59	3243.98
229.80	3395.53
230.02	3530.70
230.23	3631.05
230.44	3413.96
230.66	3364.81
230.87	3745.73
231.08	3532.75
231.29	3471.31
231.51	3502.03
231.72	3592.14
231.93	3598.28
232.15	3342.28
232.36	3284.94
232.57	3676.10
232.79	3631.05
233.00	3260.37
233.21	3315.66
233.43	3602.38
233.64	3397.58
233.85	3348.43
234.07	3295.18
234.28	3502.03
234.49	3553.23
234.70	3364.81
234.92	3196.88
235.13	3540.94
235.34	3614.66
235.56	3430.35
235.77	3252.17
235.98	3643.34
236.20	3645.38
236.41	3522.51
236.62	3348.43
236.83	3704.78
237.05	3518.41
237.26	3422.16
237.47	3297.23
237.69	3704.78
237.90	3512.27
238.11	3350.48
238.32	3305.42
238.54	3491.79
238.75	3717.06
238.96	3358.67
239.18	3301.33
239.39	3702.73
239.60	3663.82
239.81	3295.18
240.03	3360.72
240.24	3573.71
240.45	3606.47
240.66	3301.33
240.88	3246.03
241.09	3758.02
241.30	3596.23
241.52	3325.90
241.73	3332.05
241.94	3839.94
242.15	3540.94
242.37	3317.71
242.58	3473.36
242.79	3739.59
243.00	3510.22
243.22	3315.66
243.43	3422.16
243.64	3604.42
243.85	3561.42
244.07	3426.25
244.28	3360.72
244.49	3676.10
244.71	3620.81
244.92	3786.69
245.13	3418.06
245.34	3731.40
245.56	3495.88
245.77	3442.64
245.98	3530.70
246.19	3467.21
246.41	3479.50
246.62	3475.40
246.83	3405.77
247.04	3575.75
247.26	3712.97
247.47	3706.82
247.68	3475.40
247.89	3938.24
248.11	3708.87
248.32	3530.70
248.53	3430.35
248.74	3983.30
248.95	3637.19
249.17	3600.33
249.38	3612.62
249.59	3942.34
249.80	3841.99
250.02	3450.83
250.23	3585.99
250.44	3882.95
250.65	3889.09
250.87	3667.91
251.08	3700.68
251.29	3973.06
251.50	4192.19
251.71	4100.03
251.93	4501.44
252.14	5599.15
252.35	7546.76
252.56	9750.38
252.78	14640.93
252.99	21675.70
253.20	29095.49
253.41	35610.08
253.62	39972.25
253.84	41125.26
254.05	37189.06
254.26	30191.16
254.47	22480.55
254.69	15361.81
254.90	9344.88
255.11	5779.37
255.32	4224.96
255.53	4370.37
255.75	4061.12
255.96	3686.34
256.17	3815.37
256.38	3983.30
256.59	3868.61
256.81	3596.23
257.02	3678.15
257.23	3839.94
257.44	3921.86
257.65	3790.79
257.87	3817.41
258.08	3811.27
258.29	3794.89
258.50	3712.97
258.71	3667.91
258.93	4063.17
259.14	3952.58
259.35	3624.90
259.56	3706.82
259.77	4087.75
259.99	3954.63
260.20	3780.55
260.41	3874.76
260.62	4167.62
260.83	3872.71
261.04	3733.45
261.26	3758.02
261.47	4132.80
261.68	3794.89
261.89	3655.62
262.10	3624.90
262.32	3954.63
262.53	3571.66
262.74	3811.27
262.95	3704.78
263.16	4104.13
263.37	4095.94
263.59	3678.15
263.80	3794.89
264.01	4093.89
264.22	3981.25
264.43	3778.50
264.64	3944.39
264.86	4282.30
265.07	4423.61
265.28	3934.15
265.49	3956.68
265.70	4306.88
265.91	4075.46
266.13	3841.99
266.34	3805.13
266.55	4040.64
266.76	4028.35
266.97	3751.88
267.18	4089.79
267.40	4106.18
267.61	4210.62
267.82	3919.81
268.03	3772.36
268.24	4167.62
268.45	4202.43
268.66	3827.65
268.88	3893.19
269.09	3807.17
269.30	3981.25
269.51	3921.86
269.72	3956.68
269.93	4038.59
270.14	4007.87
270.36	3876.80
270.57	3733.45
270.78	4130.75
270.99	4337.60
271.20	3995.59
271.41	3907.52
271.62	4245.44
271.84	4048.83
272.05	3885.00
272.26	3954.63
272.47	4308.93
272.68	4044.74
272.89	4089.79
273.10	3885.00
273.31	4190.14
273.53	4095.94
273.74	4206.53
273.95	4014.02
274.16	4124.61
274.37	3985.35
274.58	4063.17
274.79	4069.31
275.00	4046.79
275.22	4337.60
275.43	4085.70
275.64	4116.42
275.85	4210.62
276.06	4282.30
276.27	4083.65
276.48	3917.76
276.69	4159.42
276.90	4118.47
277.12	4120.51
277.33	3954.63
277.54	4317.12
277.75	4173.76
277.96	4061.12
278.17	4036.55
278.38	4161.47
278.59	4249.54
278.80	4124.61
279.02	4237.25
279.23	4345.79
279.44	4192.19
279.65	4134.85
279.86	4087.75
280.07	4356.03
280.28	4261.82
280.49	4165.57
280.70	4089.79
280.91	4388.80
281.12	4083.65
281.34	4020.16
281.55	4067.27
281.76	4184.00
281.97	4216.77
282.18	4089.79
282.39	4036.55
282.60	4284.35
282.81	4339.65
283.02	4046.79
283.23	3897.28
283.44	4222.91
283.66	4057.03
283.87	4171.71
284.08	4114.37
284.29	4206.53
284.50	4274.11
284.71	4155.33
284.92	3925.96
285.13	4349.89
285.34	4163.52
285.55	4052.93
285.76	4155.33
285.97	4177.86
286.18	4249.54
286.39	3962.82
286.61	4224.96
286.82	4286.40
287.03	4327.36
287.24	4005.83
287.45	4116.42
287.66	4231.10
287.87	3971.01
288.08	4085.70
288.29	4140.99
288.50	4257.73
288.71	4255.68
288.92	4394.94
289.13	4206.53
289.34	4464.57
289.55	4249.54
289.76	4255.68
289.97	4372.41
290.18	4499.39
290.40	4315.07
290.61	4179.90
290.82	4011.97
291.03	4376.51
291.24	4349.89
291.45	4106.18
291.66	4122.56
291.87	4362.17
292.08	4405.18
292.29	4200.38
292.50	4134.85
292.71	4528.06
292.92	4394.94
293.13	4292.54
293.34	4280.25
293.55	4523.96
293.76	4550.59
293.97	4356.03
294.18	4206.53
294.39	4374.46
294.60	4218.82
294.81	4239.30
295.02	4265.92
295.23	4517.82
295.44	4196.29
295.65	4374.46
295.86	4478.91
296.07	4818.87
296.28	4784.06
296.49	4911.03
296.70	4804.53
296.91	4999.09
297.12	4882.36
297.34	4759.48
297.55	4640.70
297.76	4630.46
297.97	4579.26
298.18	4261.82
298.39	4214.72
298.60	4499.39
298.81	4413.37
299.02	4052.93
299.23	4251.58
299.44	4382.65
299.65	4358.08
299.86	4399.04
300.07	4089.79
300.28	4370.37
300.49	4380.61
300.70	4249.54
300.91	4370.37
301.12	4622.27
301.33	4308.93
301.54	4345.79
301.75	4458.43
301.96	4872.12
302.17	4599.74
302.38	4624.31
302.59	4704.18
302.80	4720.57
303.01	4515.77
303.22	4353.98
303.42	4345.79
303.63	4337.60
303.84	4317.12
304.05	4110.27
304.26	4153.28
304.47	4440.00
304.68	4218.82
304.89	4192.19
305.10	4286.40
305.31	4403.13
305.52	4372.41
305.73	4138.94
305.94	4202.43
306.15	4440.00
306.36	4122.56
306.57	4093.89
306.78	4028.35
306.99	4128.70
307.20	4140.99
307.41	4165.57
307.62	4202.43
307.83	4274.11
308.04	4313.02
308.25	4118.47
308.46	4057.03
308.67	4181.95
308.88	4290.49
309.09	4005.83
309.30	4134.85
309.51	4069.31
309.72	4194.24
309.93	4061.12
310.13	3876.80
310.34	4646.84
310.55	4212.67
310.76	4003.78
310.97	4116.42
311.18	4558.78
311.39	4296.64
311.60	4540.35
311.81	5064.63
312.02	6027.17
312.23	6815.64
312.44	7382.93
312.65	8277.89
312.86	9824.11
313.07	8763.26
313.28	8396.67
313.49	7772.04
313.70	7427.98
313.90	6524.83
314.11	5713.83
314.32	5179.31
314.53	4730.81
314.74	4472.76
314.95	4073.41
315.16	4032.45
315.37	4161.47
315.58	3712.97
315.79	3925.96
316.00	3962.82
316.21	4132.80
316.42	4001.73
316.62	3809.22
316.83	3897.28
317.04	4270.01
317.25	4009.92
317.46	3895.24
317.67	3819.46
317.88	3956.68
318.09	3835.85
318.30	3782.60
318.51	3803.08
318.72	4011.97
318.93	3983.30
319.13	3876.80
319.34	3755.97
319.55	4175.81
319.76	4024.26
319.97	3778.50
320.18	3606.47
320.39	3934.15
320.60	3960.77
320.81	3792.84
321.02	3680.20
321.22	3872.71
321.43	3909.57
321.64	3764.17
321.85	3663.82
322.06	4028.35
322.27	3751.88
322.48	3823.56
322.69	3604.42
322.90	3925.96
323.11	3700.68
323.31	3588.04
323.52	3698.63
323.73	3690.44
323.94	3936.20
324.15	3770.31
324.36	3592.14
324.57	3889.09
324.78	3913.67
324.98	3762.12
325.19	3678.15
325.40	4143.04
325.61	3835.85
325.82	3706.82
326.03	3651.53
326.24	3948.48
326.45	3655.62
326.65	3624.90
326.86	3571.66
327.07	3665.86
327.28	3764.17
327.49	3688.39
327.70	3565.51
327.91	3846.09
328.12	3878.85
328.32	3667.91
328.53	3655.62
328.74	3798.98
328.95	3708.87
329.16	3590.09
329.37	3565.51
329.58	3768.26
329.78	3524.55
329.99	3753.93
330.20	3655.62
330.41	3725.26
330.62	3723.21
330.83	3645.38
331.04	3717.06
331.24	3792.84
331.45	3772.36
331.66	3610.57
331.87	3557.32
332.08	3737.54
332.29	3602.38
332.49	3700.68
332.70	3620.81
332.91	3778.50
333.12	3721.16
333.33	3672.01
333.54	3868.61
333.74	4143.04
333.95	4065.22
334.16	4120.51
334.37	4067.27
334.58	4280.25
334.79	3964.87
334.99	3766.21
335.20	3655.62
335.41	3710.92
335.62	3766.21
335.83	3649.48
336.04	3585.99
336.24	3831.75
336.45	3712.97
336.66	3559.37
336.87	3510.22
337.08	3522.51
337.29	3594.19
337.49	3663.82
337.70	3577.80
337.91	3522.51
338.12	3635.14
338.33	3631.05
338.53	3442.64
338.74	3651.53
338.95	3661.77
339.16	3456.97
339.37	3706.82
339.57	3483.59
339.78	3616.71
339.99	3563.47
340.20	3585.99
340.41	3577.80
340.61	3719.11
340.82	3510.22
341.03	3403.72
341.24	3604.42
341.45	3436.49
341.65	3669.96
341.86	3413.96
342.07	3934.15
342.28	3532.75
342.49	3532.75
342.69	3536.84
342.90	3561.42
343.11	3602.38
343.32	3348.43
343.53	3489.74
343.73	3649.48
343.94	3631.05
344.15	3456.97
344.36	3489.74
344.56	3444.68
344.77	3839.94
344.98	3469.26
345.19	3524.55
345.40	3571.66
345.60	3858.37
345.81	3516.36
346.02	3573.71
346.23	3579.85
346.43	3561.42
346.64	3577.80
346.85	3407.82
347.06	3385.29
347.27	3600.33
347.47	3524.55
347.68	3391.44
347.89	3704.78
348.10	3635.14
348.30	3536.84
348.51	3624.90
348.72	3704.78
348.93	3469.26
349.13	3524.55
349.34	3391.44
349.55	3729.35
349.76	3569.61
349.96	3653.58
350.17	3536.84
350.38	3700.68
350.59	3475.40
350.79	3516.36
351.00	3475.40
351.21	3778.50
351.42	3432.40
351.62	3395.53
351.83	3559.37
352.04	3485.64
352.25	3581.90
352.45	3657.67
352.66	3416.01
352.87	3497.93
353.08	3532.75
353.28	3407.82
353.49	3432.40
353.70	3547.08
353.90	3786.69
354.11	3542.99
354.32	3381.20
354.53	3491.79
354.73	3475.40
354.94	3588.04
355.15	3311.57
355.36	3669.96
355.56	3710.92
355.77	3485.64
355.98	3497.93
356.18	3516.36
356.39	3526.60
356.60	3448.78
356.81	3598.28
357.01	3637.19
357.22	3557.32
357.43	3487.69
357.63	3461.07
357.84	3696.58
358.05	3532.75
358.26	3428.30
358.46	3456.97
358.67	3583.95
358.88	3354.57
359.08	3579.85
359.29	3467.21
359.50	3616.71
359.71	3395.53
359.91	3446.73
360.12	3442.64
360.33	3588.04
360.53	3770.31
360.74	3538.89
360.95	3442.64
361.15	3483.59
361.36	3377.10
361.57	3504.07
361.78	3536.84
361.98	3561.42
362.19	3555.27
362.40	3581.90
362.60	3391.44
362.81	3745.73
363.02	3729.35
363.22	3647.43
363.43	3823.56
363.64	4290.49
363.84	4747.19
364.05	6023.08
364.26	7516.05
364.46	10499.94
364.67	13340.47
364.88	15263.51
365.08	16762.62
365.29	16516.87
365.50	15279.89
365.70	13381.43
365.91	11472.72
366.12	10446.69
366.32	9125.75
366.53	8339.33
366.74	7397.26
366.94	6737.82
367.15	5699.50
367.36	4962.23
367.56	4485.05
367.77	4163.52
367.98	4239.30
368.18	3762.12
368.39	3700.68
368.60	3669.96
368.80	3557.32
369.01	3479.50
369.22	3469.26
369.42	3657.67
369.63	3418.06
369.84	3631.05
370.04	3565.51
370.25	3602.38
370.46	3614.66
370.66	3549.13
370.87	3450.83
371.07	3680.20
371.28	3477.45
371.49	3485.64
371.69	3563.47
371.90	3741.64
372.11	3522.51
372.31	3479.50
372.52	3422.16
372.73	3700.68
372.93	3700.68
373.14	3434.44
373.34	3352.52
373.55	3538.89
373.76	3418.06
373.96	3375.05
374.17	3530.70
374.38	3506.12
374.58	3475.40
374.79	3579.85
374.99	3502.03
375.20	3358.67
375.41	3399.63
375.61	3420.11
375.82	3532.75
376.03	3403.72
376.23	3473.36
376.44	3364.81
376.64	3495.88
376.85	3643.34
377.06	3626.95
377.26	3463.12
377.47	3502.03
377.67	3575.75
377.88	3475.40
378.09	3454.92
378.29	3504.07
378.50	3626.95
378.70	3346.38
378.91	3448.78
379.12	3387.34
379.32	3387.34
379.53	3647.43
379.73	3401.68
379.94	3479.50
380.15	3698.63
380.35	3323.85
380.56	3575.75
380.76	3471.31
380.97	3551.18
381.18	3499.98
381.38	3313.61
381.59	3311.57
381.79	3643.34
382.00	3567.56
382.21	3557.32
382.41	3344.33
382.62	3635.14
382.82	3573.71
383.03	3225.55
383.23	3520.46
383.44	3753.93
383.65	3426.25
383.85	3551.18
384.06	3456.97
384.26	3575.75
384.47	3268.56
384.67	3577.80
384.88	3557.32
385.09	3643.34
385.29	3559.37
385.50	3563.47
385.70	3395.53
385.91	3565.51
386.11	3360.72
386.32	3422.16
386.53	3553.23
386.73	3581.90
386.94	3450.83
387.14	3379.15
387.35	3348.43
387.55	3477.45
387.76	3350.48
387.96	3356.62
388.17	3399.63
388.38	3450.83
388.58	3651.53
388.79	3448.78
388.99	3428.30
389.20	3522.51
389.40	3313.61
389.61	3428.30
389.81	3520.46
390.02	3350.48
390.22	3616.71
390.43	3497.93
390.64	3446.73
390.84	3661.77
391.05	3631.05
391.25	3375.05
391.46	3485.64
391.66	3608.52
391.87	3499.98
392.07	3454.92
392.28	3463.12
392.48	3508.17
392.69	3438.54
392.89	3465.16
393.10	3520.46
393.30	3413.96
393.51	3497.93
393.71	3565.51
393.92	3426.25
394.12	3721.16
394.33	3514.31
394.54	3686.34
394.74	3426.25
394.95	3815.37
395.15	3354.57
395.36	3375.05
395.56	3391.44
395.77	3387.34
395.97	3727.30
396.18	3348.43
396.38	3364.81
396.59	3559.37
396.79	3471.31
397.00	3575.75
397.20	3588.04
397.41	3678.15
397.61	3502.03
397.82	3473.36
398.02	3459.02
398.23	3715.02
398.43	3553.23
398.64	3327.95
398.84	3438.54
399.05	3536.84
399.25	3420.11
399.46	3413.96
399.66	3534.79
399.87	3667.91
400.07	3536.84
400.28	3409.87
400.48	3526.60
400.68	3626.95
400.89	3467.21
401.09	3448.78
401.30	3395.53
401.50	3657.67
401.71	3583.95
401.91	3489.74
402.12	3590.09
402.32	3588.04
402.53	3444.68
402.73	3618.76
402.94	3864.52
403.14	4159.42
403.35	5009.33
403.55	6498.20
403.76	8933.24
403.96	13817.65
404.16	19687.12
404.37	25167.49
404.57	27270.75
404.78	27678.30
404.98	26224.24
405.19	22015.66
405.39	17374.97
405.60	13598.51
405.80	10923.87
406.01	9160.56
406.21	7464.85
406.42	6469.53
406.62	5597.10
406.82	4978.61
407.03	4650.94
407.23	4808.63
407.44	5232.56
407.64	5275.57
407.85	5224.37
408.05	5664.68
408.26	4900.79
408.46	4542.39
408.66	4270.01
408.87	4065.22
409.07	4054.98
409.28	3876.80
409.48	3809.22
409.69	3770.31
409.89	3866.56
410.09	3622.86
410.30	3540.94
410.50	3743.69
410.71	3803.08
410.91	3622.86
411.12	3444.68
411.32	3657.67
411.52	3600.33
411.73	3629.00
411.93	3434.44
412.14	3729.35
412.34	3647.43
412.55	3389.39
412.75	3508.17
412.95	3540.94
413.16	3512.27
413.36	3542.99
413.57	3577.80
413.77	3809.22
413.97	3704.78
414.18	3686.34
414.38	3485.64
414.59	3571.66
414.79	3547.08
414.99	3551.18
415.20	3680.20
415.40	3557.32
415.61	3362.76
415.81	3510.22
416.01	3426.25
416.22	3682.25
416.42	3493.83
416.63	3514.31
416.83	3520.46
417.03	3616.71
417.24	3672.01
417.44	3426.25
417.65	3463.12
417.85	3751.88
418.05	3604.42
418.26	3575.75
418.46	3598.28
418.66	3461.07
418.87	3573.71
419.07	3432.40
419.28	3561.42
419.48	3524.55
419.68	3502.03
419.89	3571.66
420.09	3592.14
420.29	3557.32
420.50	3569.61
420.70	3663.82
420.91	3622.86
421.11	3528.65
421.31	3395.53
421.52	3545.03
421.72	3477.45
421.92	3461.07
422.13	3526.60
422.33	3430.35
422.53	3588.04
422.74	3637.19
422.94	3391.44
423.15	3563.47
423.35	3418.06
423.55	3629.00
423.76	3473.36
423.96	3526.60
424.16	3475.40
424.37	3561.42
424.57	3721.16
424.77	3428.30
424.98	3469.26
425.18	3446.73
425.38	3682.25
425.59	3418.06
425.79	3436.49
425.99	3663.82
426.20	3418.06
426.40	3438.54
426.60	3434.44
426.81	3700.68
427.01	3649.48
427.21	3516.36
427.42	3430.35
427.62	3680.20
427.82	3743.69
428.03	3663.82
428.23	3471.31
428.43	3661.77
428.64	3608.52
428.84	3565.51
429.04	3542.99
429.25	3968.96
429.45	3518.41
429.65	3553.23
429.86	3514.31
430.06	3592.14
430.26	3565.51
430.47	3446.73
430.67	3579.85
430.87	3741.64
431.08	3637.19
431.28	3604.42
431.48	3590.09
431.68	3557.32
431.89	3499.98
432.09	3620.81
432.29	3620.81
432.50	3758.02
432.70	3618.76
432.90	3622.86
433.11	3680.20
433.31	3823.56
433.51	3919.81
433.72	3991.49
433.92	4003.78
434.12	4657.08
434.32	5240.75
434.53	7772.04
434.73	11951.95
434.93	19939.02
435.14	32937.48
435.34	49544.46
435.54	63333.43
435.74	65535.00
435.95	65535.00
436.15	65535.00
436.35	59235.45
436.56	46064.96
436.76	35737.05
436.96	30039.61
437.16	23416.47
437.37	18079.47
437.57	12736.32
437.77	8925.05
437.97	6180.77
438.18	5031.86
438.38	4155.33
438.58	4022.21
438.79	3823.56
438.99	3925.96
439.19	3917.76
439.39	3655.62
439.60	3612.62
439.80	3723.21
440.00	3643.34
440.20	3473.36
440.41	3413.96
440.61	3653.58
440.81	3588.04
441.01	3528.65
441.22	3741.64
441.42	3676.10
441.62	3542.99
441.82	3571.66
442.03	3579.85
442.23	3682.25
442.43	3567.56
442.63	3514.31
442.84	3512.27
443.04	3506.12
443.24	3663.82
443.44	3454.92
443.65	3532.75
443.85	3590.09
444.05	3504.07
444.25	3459.02
444.46	3583.95
444.66	3569.61
444.86	3436.49
445.06	3424.20
445.26	3669.96
445.47	3690.44
445.67	3473.36
445.87	3551.18
446.07	3528.65
446.28	3745.73
446.48	3508.17
446.68	3508.17
446.88	3459.02
447.08	3733.45
447.29	3381.20
447.49	3452.88
447.69	3391.44
447.89	3739.59
448.10	3653.58
448.30	3381.20
448.50	3391.44
448.70	3538.89
448.90	3483.59
449.11	3338.19
449.31	3475.40
449.51	3456.97
449.71	3514.31
449.91	3477.45
450.12	3424.20
450.32	3495.88
450.52	3401.68
450.72	3313.61
450.92	3499.98
451.13	3561.42
451.33	3463.12
451.53	3407.82
451.73	3436.49
451.93	3444.68
452.14	3393.48
452.34	3430.35
452.54	3405.77
452.74	3571.66
452.94	3524.55
453.14	3471.31
453.35	3405.77
453.55	3442.64
453.75	3524.55
453.95	3477.45
454.15	3377.10
454.36	3391.44
454.56	3260.37
454.76	3327.95
454.96	3311.57
455.16	3579.85
455.36	3397.58
455.57	3295.18
455.77	3327.95
455.97	3450.83
456.17	3327.95
456.37	3213.26
456.57	3284.94
456.78	3545.03
456.98	3569.61
457.18	3393.48
457.38	3360.72
457.58	3444.68
457.78	3461.07
457.98	3403.72
458.19	3373.00
458.39	3397.58
458.59	3237.84
458.79	3397.58
458.99	3334.09
459.19	3538.89
459.40	3358.67
459.60	3280.85
459.80	3403.72
460.00	3413.96
460.20	3311.57
460.40	3373.00
460.60	3389.39
460.80	3327.95
461.01	3334.09
461.21	3391.44
461.41	3420.11
461.61	3481.55
461.81	3446.73
462.01	3323.85
462.21	3262.41
462.42	3411.92
462.62	3309.52
462.82	3252.17
463.02	3219.41
463.22	3481.55
463.42	3332.05
463.62	3395.53
463.82	3393.48
464.03	3493.83
464.23	3411.92
464.43	3405.77
464.63	3301.33
464.83	3475.40
465.03	3485.64
465.23	3356.62
465.43	3375.05
465.63	3254.22
465.84	3420.11
466.04	3381.20
466.24	3323.85
466.44	3405.77
466.64	3155.92
466.84	3297.23
467.04	3303.37
467.24	3385.29
467.44	3405.77
467.64	3327.95
467.85	3172.30
468.05	3454.92
468.25	3274.70
468.45	3387.34
468.65	3420.11
468.85	3321.81
469.05	3278.80
469.25	3174.35
469.45	3207.12
469.65	3524.55
469.85	3291.09
470.05	3188.69
470.26	3178.45
470.46	3473.36
470.66	3428.30
470.86	3362.76
471.06	3315.66
471.26	3323.85
471.46	3389.39
471.66	3397.58
471.86	3334.09
472.06	3559.37
472.26	3264.46
472.46	3227.60
472.66	3286.99
472.86	3659.72
473.07	3289.04
473.27	3213.26
473.47	3168.21
473.67	3438.54
473.87	3487.69
474.07	3301.33
474.27	3370.96
474.47	3342.28
474.67	3385.29
474.87	3246.03
475.07	3305.42
475.27	3346.38
475.47	3243.98
475.67	3354.57
475.87	3198.93
476.07	3268.56
476.27	3334.09
476.47	3395.53
476.67	3172.30
476.88	3385.29
477.08	3420.11
477.28	3409.87
477.48	3190.74
477.68	3629.00
477.88	3280.85
478.08	3284.94
478.28	3452.88
478.48	3356.62
478.68	3350.48
478.88	3399.63
479.08	3405.77
479.28	3424.20
479.48	3542.99
479.68	3373.00
479.88	3295.18
480.08	3454.92
480.28	3350.48
480.48	3434.44
480.68	3424.20
480.88	3508.17
481.08	3319.76
481.28	3471.31
481.48	3313.61
481.68	3450.83
481.88	3452.88
482.08	3330.00
482.28	3198.93
482.48	3381.20
482.68	3563.47
482.88	3295.18
483.08	3256.27
483.28	3424.20
483.48	3233.74
483.68	3270.61
483.88	3336.14
484.08	3358.67
484.28	3325.90
484.48	3260.37
484.68	3354.57
484.88	3469.26
485.08	3272.65
485.28	3364.81
485.48	3274.70
485.68	3344.33
485.88	3475.40
486.08	3274.70
486.28	3168.21
486.48	3620.81
486.68	3409.87
486.88	3403.72
487.08	3186.64
487.28	3434.44
487.48	3348.43
487.68	3330.00
487.88	3350.48
488.08	3563.47
488.28	3444.68
488.48	3366.86
488.68	3260.37
488.88	3610.57
489.08	3389.39
489.28	3434.44
489.48	3436.49
489.68	3571.66
489.87	3373.00
490.07	3485.64
490.27	3413.96
490.47	3495.88
490.67	3747.78
490.87	3469.26
491.07	3807.17
491.27	3645.38
491.47	3602.38
491.67	3647.43
491.87	3702.73
492.07	3936.20
492.27	3702.73
492.47	3477.45
492.67	3524.55
492.87	3454.92
493.07	3391.44
493.27	3497.93
493.47	3301.33
493.66	3645.38
493.86	3297.23
494.06	3409.87
494.26	3252.17
494.46	3596.23
494.66	3393.48
494.86	3399.63
495.06	3319.76
495.26	3409.87
495.46	3362.76
495.66	3467.21
495.86	3336.14
496.06	3684.30
496.26	3555.27
496.45	3321.81
496.65	3411.92
496.85	3416.01
497.05	3467.21
497.25	3563.47
497.45	3284.94
497.65	3463.12
497.85	3413.96
498.05	3319.76
498.25	3413.96
498.45	3504.07
498.64	3530.70
498.84	3413.96
499.04	3426.25
499.24	3416.01
499.44	3409.87
499.64	3344.33
499.84	3319.76
500.04	3375.05
500.24	3424.20
500.44	3430.35
500.63	3452.88
500.83	3700.68
501.03	3254.22
501.23	3336.14
501.43	3289.04
501.63	3542.99
501.83	3518.41
502.03	3499.98
502.23	3327.95
502.42	3405.77
502.62	3426.25
502.82	3383.24
503.02	3428.30
503.22	3477.45
503.42	3360.72
503.62	3442.64
503.82	3301.33
504.01	3332.05
504.21	3430.35
504.41	3125.20
504.61	3514.31
504.81	3387.34
505.01	3481.55
505.21	3520.46
505.40	3370.96
505.60	3483.59
505.80	3407.82
506.00	3397.58
506.20	3344.33
506.40	3442.64
506.60	3411.92
506.79	3350.48
506.99	3213.26
507.19	3438.54
507.39	3344.33
507.59	3373.00
507.79	3409.87
507.99	3540.94
508.18	3463.12
508.38	3440.59
508.58	3141.58
508.78	3735.50
508.98	3506.12
509.18	3219.41
509.37	3348.43
509.57	3327.95
509.77	3540.94
509.97	3399.63
510.17	3321.81
510.37	3428.30
510.56	3289.04
510.76	3821.51
510.96	3334.09
511.16	3348.43
511.36	3512.27
511.56	3354.57
511.75	3321.81
511.95	3721.16
512.15	3528.65
512.35	3379.15
512.55	3323.85
512.75	3567.56
512.94	3471.31
513.14	3346.38
513.34	3264.46
513.54	3442.64
513.74	3430.35
513.93	3373.00
514.13	3203.02
514.33	3459.02
514.53	3559.37
514.73	3203.02
514.92	3377.10
515.12	3270.61
515.32	3596.23
515.52	3233.74
515.72	3262.41
515.91	3534.79
516.11	3459.02
516.31	3157.97
516.51	3334.09
516.71	3381.20
516.90	3248.08
517.10	3338.19
517.30	3229.65
517.50	3346.38
517.69	3403.72
517.89	3338.19
518.09	3143.63
518.29	3272.65
518.49	3383.24
518.68	3190.74
518.88	3336.14
519.08	3256.27
519.28	3401.68
519.47	3342.28
519.67	3256.27
519.87	3549.13
520.07	3368.91
520.27	3481.55
520.46	3297.23
520.66	3248.08
520.86	3409.87
521.06	3293.13
521.25	3110.86
521.45	3565.51
521.65	3514.31
521.85	3221.45
522.04	3192.78
522.24	3383.24
522.44	3444.68
522.64	3411.92
522.83	3360.72
523.03	3631.05
523.23	3422.16
523.43	3334.09
523.62	3190.74
523.82	3393.48
524.02	3430.35
524.22	3381.20
524.41	3280.85
524.61	3489.74
524.81	3489.74
525.01	3358.67
525.20	3354.57
525.40	3604.42
525.60	3491.79
525.80	3246.03
525.99	3221.45
526.19	3526.60
526.39	3499.98
526.58	3358.67
526.78	3192.78
526.98	3157.97
527.18	3243.98
527.37	3231.69
527.57	3264.46
527.77	3377.10
527.96	3405.77
528.16	3180.50
528.36	3129.30
528.56	3393.48
528.75	3549.13
528.95	3295.18
529.15	3196.88
529.34	3538.89
529.54	3276.75
529.74	3149.78
529.94	3266.51
530.13	3563.47
530.33	3499.98
530.53	3211.22
530.72	3211.22
530.92	3516.36
531.12	3424.20
531.31	3205.07
531.51	3155.92
531.71	3422.16
531.91	3491.79
532.10	3381.20
532.30	3139.54
532.50	3504.07
532.69	3223.50
532.89	3315.66
533.09	3065.81
533.28	3215.31
533.48	3481.55
533.68	3198.93
533.87	3239.89
534.07	3475.40
534.27	3325.90
534.46	3162.06
534.66	3172.30
534.86	3246.03
535.05	3180.50
535.25	3209.17
535.45	3033.04
535.64	3510.22
535.84	3250.13
536.04	3106.77
536.23	3151.82
536.43	3346.38
536.63	3321.81
536.82	3125.20
537.02	3119.06
537.22	3542.99
537.41	3227.60
537.61	3284.94
537.81	3198.93
538.00	3309.52
538.20	3291.09
538.40	3278.80
538.59	3231.69
538.79	3397.58
538.99	3278.80
539.18	3215.31
539.38	3188.69
539.58	3635.14
539.77	3559.37
539.97	3266.51
540.16	3266.51
540.36	3573.71
540.56	3305.42
540.75	3172.30
540.95	3168.21
541.15	3352.52
541.34	3450.83
541.54	3254.22
541.73	3243.98
541.93	3516.36
542.13	3442.64
542.32	3227.60
542.52	3168.21
542.72	3375.05
542.91	3506.12
543.11	3295.18
543.30	3291.09
543.50	3547.08
543.70	3387.34
543.89	3278.80
544.09	3364.81
544.28	3545.03
544.48	3737.54
544.68	3762.12
544.87	5461.93
545.07	11757.39
545.27	23109.28
545.46	36607.44
545.66	50433.28
545.85	59319.41
546.05	62006.35
546.25	59647.09
546.44	53253.33
546.64	44705.11
546.83	38010.30
547.03	33818.11
547.22	29875.77
547.42	26408.56
547.62	22752.93
547.81	18448.10
548.01	14944.03
548.20	11636.56
548.40	9125.75
548.60	6784.92
548.79	5435.31
548.99	4603.83
549.18	4106.18
549.38	3704.78
549.57	3477.45
549.77	3616.71
549.97	3438.54
550.16	3416.01
550.36	3213.26
550.55	3487.69
550.75	3540.94
550.94	3164.11
551.14	3258.32
551.34	3268.56
551.53	3436.49
551.73	3284.94
551.92	3211.22
552.12	3454.92
552.31	3266.51
552.51	3301.33
552.70	3104.72
552.90	3508.17
553.10	3250.13
553.29	3356.62
553.49	3123.15
553.68	3274.70
553.88	3270.61
554.07	3198.93
554.27	3229.65
554.46	3428.30
554.66	3446.73
554.85	3147.73
555.05	3133.39
555.25	3297.23
555.44	3248.08
555.64	3178.45
555.83	3157.97
556.03	3278.80
556.22	3366.86
556.42	3155.92
556.61	3168.21
556.81	3487.69
557.00	3289.04
557.20	3110.86
557.39	3110.86
557.59	3385.29
557.78	3352.52
557.98	3219.41
558.17	3102.67
558.37	3207.12
558.56	3250.13
558.76	3256.27
558.95	3272.65
559.15	3252.17
559.34	3291.09
559.54	3186.64
559.73	3129.30
559.93	3325.90
560.12	3280.85
560.32	3153.87
560.51	3256.27
560.71	3428.30
560.90	3393.48
561.10	3061.71
561.29	3137.49
561.49	3270.61
561.68	3174.35
561.88	3262.41
562.07	3084.24
562.27	3379.15
562.46	3387.34
562.66	3112.91
562.85	3024.85
563.05	3168.21
563.24	3368.91
563.44	3209.17
563.63	2996.18
563.83	3436.49
564.02	3262.41
564.22	3256.27
564.41	2996.18
564.61	3282.89
564.80	3409.87
565.00	3139.54
565.19	3088.34
565.39	3127.25
565.58	3270.61
565.77	3119.06
565.97	3053.52
566.16	3168.21
566.36	3305.42
566.55	3037.14
566.75	3157.97
566.94	3332.05
567.14	3190.74
567.33	3123.15
567.53	3139.54
567.72	3360.72
567.91	3323.85
568.11	3250.13
568.30	3053.52
568.50	3248.08
568.69	3198.93
568.89	3174.35
569.08	3176.40
569.28	3221.45
569.47	3315.66
569.66	3182.54
569.86	3143.63
570.05	3168.21
570.25	3114.96
570.44	3074.00
570.64	3133.39
570.83	3205.07
571.03	3225.55
571.22	3170.26
571.41	3053.52
571.61	3381.20
571.80	3155.92
572.00	3004.37
572.19	3119.06
572.38	3565.51
572.58	3420.11
572.77	3262.41
572.97	3237.84
573.16	3157.97
573.36	3172.30
573.55	3037.14
573.74	3198.93
573.94	3110.86
574.13	3213.26
574.33	3110.86
574.52	3037.14
574.71	3266.51
574.91	3198.93
575.10	3112.91
575.30	3143.63
575.49	3207.12
575.68	3307.47
575.88	3733.45
576.07	5130.16
576.27	7372.69
576.46	8961.91
576.65	10461.02
576.85	11601.74
577.04	11231.06
577.23	10585.95
577.43	9693.04
577.62	8464.25
577.82	7821.19
578.01	7815.05
578.20	8533.89
578.40	9979.75
578.59	11532.11
578.79	12427.07
578.98	12336.96
579.17	11839.31
579.37	10762.08
579.56	9367.41
579.75	8052.61
579.95	7274.38
580.14	6737.82
580.33	6533.02
580.53	6029.22
580.72	5541.80
580.92	5631.91
581.11	4648.89
581.30	4403.13
581.50	3913.67
581.69	3686.34
581.88	3686.34
582.08	3319.76
582.27	3192.78
582.46	3282.89
582.66	3258.32
582.85	3155.92
583.04	3078.10
583.24	3389.39
583.43	3305.42
583.62	3049.43
583.82	3086.29
584.01	3344.33
584.20	3256.27
584.40	3256.27
584.59	3123.15
584.78	3137.49
584.98	3282.89
585.17	3135.44
585.36	3229.65
585.56	3186.64
585.75	3067.86
585.94	3049.43
586.14	3045.33
586.33	3311.57
586.52	3125.20
586.72	3139.54
586.91	3067.86
587.10	3268.56
587.30	3160.02
587.49	3260.37
587.68	3006.42
587.88	3213.26
588.07	3000.27
588.26	3000.27
588.45	3028.95
588.65	2985.94
588.84	3170.26
589.03	3006.42
589.23	2955.22
589.42	3172.30
589.61	3078.10
589.81	2983.89
590.00	3028.95
590.19	3123.15
590.38	3188.69
590.58	3262.41
590.77	3014.61
590.96	3143.63
591.16	3323.85
591.35	2992.08
591.54	3020.75
591.73	2951.12
591.93	3155.92
592.12	3041.23
592.31	3104.72
592.51	3035.09
592.70	3188.69
592.89	3033.04
593.08	3065.81
593.28	3233.74
593.47	3252.17
593.66	3069.91
593.85	3205.07
594.05	3198.93
594.24	3098.58
594.43	3112.91
594.63	3076.05
594.82	3403.72
595.01	3063.76
595.20	3190.74
595.40	3229.65
595.59	3190.74
595.78	2969.55
595.97	3168.21
596.17	3139.54
596.36	3129.30
596.55	3221.45
596.74	3018.71
596.94	3024.85
597.13	3411.92
597.32	3059.67
597.51	3157.97
597.71	2992.08
597.90	3307.47
598.09	3147.73
598.28	3084.24
598.48	3108.82
598.67	3246.03
598.86	3147.73
599.05	3129.30
599.24	3063.76
599.44	3231.69
599.63	3211.22
599.82	3080.14
600.01	2971.60
600.21	3284.94
600.40	3004.37
600.59	3112.91
600.78	3028.95
600.97	3258.32
601.17	3098.58
601.36	2940.88
601.55	3096.53
601.74	3213.26
601.93	3227.60
602.13	3041.23
602.32	3069.91
602.51	3200.98
602.70	3057.62
602.90	3162.06
603.09	3088.34
603.28	3162.06
603.47	3069.91
603.66	2969.55
603.86	2930.64
604.05	3016.66
604.24	3178.45
604.43	3059.67
604.62	3166.16
604.81	3143.63
605.01	3243.98
605.20	3057.62
605.39	3092.43
605.58	3225.55
605.77	3174.35
605.97	3131.34
606.16	3055.57
606.35	3114.96
606.54	3104.72
606.73	3119.06
606.92	3180.50
607.12	3143.63
607.31	3084.24
607.50	3106.77
607.69	3143.63
607.88	3176.40
608.07	3094.48
608.27	3241.93
608.46	3135.44
608.65	3241.93
608.84	3370.96
609.03	3030.99
609.22	2975.70
609.42	3205.07
609.61	3030.99
609.80	3080.14
609.99	3065.81
610.18	3000.27
610.37	3192.78
610.57	3078.10
610.76	2987.99
610.95	3231.69
611.14	3872.71
611.33	3049.43
611.52	3123.15
611.71	3014.61
611.90	3188.69
612.10	3098.58
612.29	2963.41
612.48	3205.07
612.67	3293.13
612.86	3067.86
613.05	3055.57
613.24	3102.67
613.44	3219.41
613.63	3102.67
613.82	3002.32
614.01	3243.98
614.20	3215.31
614.39	3057.62
614.58	2965.46
614.77	3432.40
614.97	3162.06
615.16	3065.81
615.35	3030.99
615.54	3100.62
615.73	3203.02
615.92	3137.49
616.11	3121.10
616.30	3139.54
616.49	3039.19
616.68	2922.45
616.88	3002.32
617.07	3143.63
617.26	3174.35
617.45	3063.76
617.64	3028.95
617.83	3008.47
618.02	3084.24
618.21	3030.99
618.40	2897.88
618.59	3039.19
618.79	3207.12
618.98	3178.45
619.17	3076.05
619.36	3157.97
619.55	3133.39
619.74	3194.83
619.93	3030.99
620.12	3061.71
620.31	3102.67
620.50	3057.62
620.69	3145.68
620.88	3117.01
621.07	3268.56
621.27	3016.66
621.46	3071.95
621.65	3260.37
621.84	3338.19
622.03	3385.29
622.22	2949.08
622.41	3200.98
622.60	3094.48
622.79	3094.48
622.98	2967.51
623.17	3078.10
623.36	3155.92
623.55	3055.57
623.74	3051.47
623.93	3096.53
624.12	3137.49
624.31	2967.51
624.50	3110.86
624.70	3008.47
624.89	3475.40
625.08	3084.24
625.27	3006.42
625.46	3061.71
625.65	3182.54
625.84	3055.57
626.03	3143.63
626.22	3225.55
626.41	2965.46
626.60	2996.18
626.79	3047.38
626.98	3315.66
627.17	3168.21
627.36	3024.85
627.55	3008.47
627.74	3119.06
627.93	3088.34
628.12	3008.47
628.31	3000.27
628.50	3241.93
628.69	3057.62
628.88	2987.99
629.07	3014.61
629.26	3358.67
629.45	3178.45
629.64	3106.77
629.83	2967.51
630.02	3268.56
630.21	3008.47
630.40	3002.32
630.59	2959.31
630.78	3143.63
630.97	3117.01
631.16	3131.34
631.35	3037.14
631.54	3065.81
631.73	3164.11
631.92	3055.57
632.11	3065.81
632.30	3149.78
632.49	3203.02
632.68	3008.47
632.87	3074.00
633.06	3266.51
633.25	3119.06
633.44	3069.91
633.63	2992.08
633.82	3100.62
634.01	3098.58
634.20	3143.63
634.39	3057.62
634.58	3194.83
634.77	3184.59
634.96	3098.58
635.15	3069.91
635.34	3352.52
635.53	3035.09
635.72	3119.06
635.91	3078.10
636.10	3084.24
636.29	3082.19
636.47	3086.29
636.66	3133.39
636.85	3213.26
637.04	3252.17
637.23	3270.61
637.42	3008.47
637.61	2936.79
637.80	3143.63
637.99	3184.59
638.18	3096.53
638.37	3454.92
638.56	3258.32
638.75	3196.88
638.94	3051.47
639.13	3200.98
639.32	3114.96
639.51	3141.58
639.69	3063.76
639.88	3284.94
640.07	3022.80
640.26	3067.86
640.45	3180.50
640.64	3225.55
640.83	3117.01
641.02	3076.05
641.21	3198.93
641.40	3155.92
641.59	3057.62
641.78	3174.35
641.97	3182.54
642.15	3178.45
642.34	3393.48
642.53	3190.74
642.72	3147.73
642.91	3213.26
643.10	3135.44
643.29	3368.91
643.48	2975.70
643.67	3325.90
643.86	3162.06
644.05	3039.19
644.23	3196.88
644.42	3063.76
644.61	3086.29
644.80	3223.50
644.99	3127.25
645.18	3311.57
645.37	3151.82
645.56	3112.91
645.75	3162.06
645.93	3327.95
646.12	3217.36
646.31	3045.33
646.50	3153.87
646.69	3282.89
646.88	3168.21
647.07	3139.54
647.26	3092.43
647.44	3225.55
647.63	3157.97
647.82	3096.53
648.01	3057.62
648.20	3057.62
648.39	3180.50
648.58	3104.72
648.77	3246.03
648.95	3131.34
649.14	3276.75
649.33	3022.80
649.52	3057.62
649.71	3133.39
649.90	3315.66
650.09	3061.71
650.27	2957.27
650.46	3530.70
650.65	3106.77
650.84	3090.38
651.03	2973.65
651.22	3143.63
651.40	3190.74
651.59	3100.62
651.78	3196.88
651.97	3071.95
652.16	3102.67
652.35	3092.43
652.53	3086.29
652.72	3213.26
652.91	2992.08
653.10	2979.79
653.29	3117.01
653.48	3121.10
653.66	3141.58
653.85	3010.51
654.04	3010.51
654.23	3151.82
654.42	2992.08
654.61	3039.19
654.79	3065.81
654.98	3069.91
655.17	2942.93
655.36	2908.12
655.55	2930.64
655.73	2963.41
655.92	2987.99
656.11	3071.95
656.30	2973.65
656.49	3037.14
656.67	3028.95
656.86	3071.95
657.05	3028.95
657.24	2944.98
657.43	2957.27
657.61	3024.85
657.80	3147.73
657.99	3063.76
658.18	3045.33
658.37	2922.45
658.55	2901.97
658.74	3172.30
658.93	3106.77
659.12	3012.56
659.30	3010.51
659.49	3121.10
659.68	3000.27
659.87	2998.23
660.06	2906.07
660.24	2996.18
660.43	3012.56
660.62	3110.86
660.81	3069.91
660.99	3067.86
661.18	3080.14
661.37	3078.10
661.56	2928.60
661.75	2920.40
661.93	3059.67
662.12	2926.55
662.31	2897.88
662.50	3147.73
662.68	3028.95
662.87	3030.99
663.06	2924.50
663.25	3002.32
663.43	3030.99
663.62	2992.08
663.81	2922.45
664.00	3348.43
664.18	3018.71
664.37	3051.47
664.56	2922.45
664.75	2944.98
664.93	3076.05
665.12	2834.39
665.31	3080.14
665.49	3010.51
665.68	3069.91
665.87	3123.15
666.06	2901.97
666.24	3092.43
666.43	2924.50
666.62	2944.98
666.81	3004.37
666.99	3241.93
667.18	3033.04
667.37	3063.76
667.55	3039.19
667.74	3211.22
667.93	3080.14
668.12	2940.88
668.30	2895.83
668.49	3016.66
668.68	3055.57
668.86	3047.38
669.05	2871.25
669.24	2975.70
669.42	2940.88
669.61	3030.99
669.80	3088.34
669.99	3119.06
670.17	2947.03
670.36	2981.84
670.55	2987.99
670.73	2969.55
670.92	3051.47
671.11	2899.92
671.29	3039.19
671.48	2940.88
671.67	3024.85
671.85	3082.19
672.04	2973.65
672.23	3084.24
672.42	3174.35
672.60	2961.36
672.79	3078.10
672.98	2899.92
673.16	3196.88
673.35	3055.57
673.54	2959.31
673.72	3137.49
673.91	3076.05
674.10	2912.21
674.28	3119.06
674.47	3024.85
674.66	2916.31
674.84	3157.97
675.03	2926.55
675.22	2916.31
675.40	3108.82
675.59	2932.69
675.77	3035.09
675.96	3121.10
676.15	2951.12
676.33	2916.31
676.52	3049.43
676.71	3024.85
676.89	3012.56
677.08	2998.23
677.27	2916.31
677.45	3106.77
677.64	2967.51
677.83	3164.11
678.01	2867.16
678.20	3069.91
678.38	3174.35
678.57	2994.13
678.76	3047.38
678.94	3104.72
679.13	3170.26
679.32	3200.98
679.50	3039.19
679.69	2959.31
679.87	3274.70
680.06	3047.38
680.25	3213.26
680.43	3080.14
680.62	2912.21
680.81	3135.44
680.99	3008.47
681.18	3030.99
681.36	3020.75
681.55	3049.43
681.74	2992.08
681.92	2961.36
682.11	2965.46
682.29	2979.79
682.48	3051.47
682.67	3020.75
682.85	3192.78
683.04	3053.52
683.22	2953.17
683.41	3354.57
683.60	2930.64
683.78	2846.68
683.97	3049.43
684.15	2797.53
684.34	3174.35
684.52	3069.91
684.71	2979.79
684.90	2963.41
685.08	3059.67
685.27	2940.88
685.45	2957.27
685.64	3178.45
685.82	3090.38
686.01	2973.65
686.20	2975.70
686.38	3045.33
686.57	3084.24
686.75	2942.93
686.94	2957.27
687.12	2969.55
687.31	2887.64
687.50	2815.96
687.68	2940.88
687.87	2990.03
688.05	3141.58
688.24	2973.65
688.42	2914.26
688.61	3000.27
688.79	3024.85
688.98	3067.86
689.17	2881.49
689.35	2981.84
689.54	2838.48
689.72	2848.72
689.91	3078.10
690.09	2955.22
690.28	3016.66
690.46	2996.18
690.65	3155.92
690.83	3360.72
691.02	3205.07
691.20	2906.07
691.39	3041.23
691.57	3076.05
691.76	3168.21
691.95	3221.45
692.13	2881.49
692.32	3047.38
692.50	2947.03
692.69	3231.69
692.87	2926.55
693.06	3176.40
693.24	3117.01
693.43	3213.26
693.61	2928.60
693.80	2918.36
693.98	3141.58
694.17	2877.40
694.35	2785.24
694.54	3117.01
694.72	2731.99
694.91	2897.88
695.09	2916.31
695.28	2920.40
695.46	2875.35
695.65	2805.72
695.83	2893.78
696.02	3035.09
696.20	3153.87
696.39	3059.67
696.57	2920.40
696.76	2959.31
696.94	2852.82
697.13	2967.51
697.31	2969.55
697.49	2897.88
697.68	2799.57
697.86	2963.41
698.05	2992.08
698.23	3190.74
698.42	2873.30
698.60	2977.75
698.79	2975.70
698.97	2936.79
699.16	2985.94
699.34	3225.55
699.53	2928.60
699.71	2977.75
699.90	3004.37
700.08	2932.69
700.26	3033.04
700.45	2981.84
700.63	2924.50
700.82	2844.63
701.00	2977.75
701.19	3260.37
701.37	2926.55
701.56	2912.21
701.74	3037.14
701.92	3137.49
702.11	2920.40
702.29	2867.16
702.48	2863.06
702.66	2936.79
702.85	2932.69
703.03	2899.92
703.22	2861.01
703.40	2983.89
703.58	2709.46
703.77	2955.22
703.95	2901.97
704.14	3065.81
704.32	2951.12
704.50	3047.38
704.69	2877.40
704.87	3143.63
705.06	2875.35
705.24	2928.60
705.43	2940.88
705.61	2934.74
705.79	2973.65
705.98	2990.03
706.16	3123.15
706.35	3069.91
706.53	2846.68
706.71	2848.72
706.90	2916.31
707.08	3030.99
707.27	3192.78
707.45	3006.42
707.63	2959.31
707.82	2912.21
708.00	2838.48
708.19	3028.95
708.37	3035.09
708.55	3057.62
708.74	2977.75
708.92	2897.88
709.10	2901.97
709.29	3004.37
709.47	3033.04
709.66	2971.60
709.84	3033.04
710.02	2914.26
710.21	2977.75
710.39	3020.75
710.57	3114.96
710.76	2854.87
710.94	2942.93
711.13	3082.19
711.31	2865.11
711.49	3039.19
711.68	3076.05
711.86	3098.58
712.04	2852.82
712.23	3127.25
712.41	3020.75
712.59	3012.56
712.78	2975.70
712.96	2904.02
713.14	2854.87
713.33	2863.06
713.51	2893.78
713.70	3039.19
713.88	2879.44
714.06	2914.26
714.25	3055.57
714.43	2871.25
714.61	2940.88
714.80	3014.61
714.98	2914.26
715.16	3061.71
715.35	3153.87
715.53	3037.14
715.71	2885.59
715.90	3047.38
716.08	2758.61
716.26	2924.50
716.45	3088.34
716.63	2928.60
716.81	2824.15
716.99	2955.22
717.18	2789.33
717.36	3076.05
717.54	3018.71
717.73	2826.20
717.91	2916.31
718.09	3110.86
718.28	2844.63
718.46	2752.47
718.64	2811.86
718.83	2942.93
719.01	3051.47
719.19	2881.49
719.37	2985.94
719.56	3086.29
719.74	2897.88
719.92	2953.17
720.11	2930.64
720.29	2805.72
720.47	2891.73
720.65	3008.47
720.84	3094.48
721.02	3114.96
721.20	2908.12
721.39	2850.77
721.57	2768.85
721.75	3131.34
721.93	2932.69
722.12	2932.69
722.30	2916.31
722.48	2848.72
722.66	2887.64
722.85	3053.52
723.03	2951.12
723.21	2996.18
723.40	3119.06
723.58	2775.00
723.76	3045.33
723.94	2973.65
724.13	3041.23
724.31	2877.40
724.49	2920.40
724.67	2899.92
724.86	3045.33
725.04	2928.60
725.22	2865.11
725.40	2985.94
725.59	3069.91
725.77	2928.60
725.95	2996.18
726.13	3121.10
726.32	2947.03
726.50	3035.09
726.68	2805.72
726.86	3012.56
727.04	3051.47
727.23	2930.64
727.41	2826.20
727.59	3112.91
727.77	3028.95
727.96	2699.22
728.14	2777.05
728.32	2818.00
728.50	3049.43
728.68	2840.53
728.87	2877.40
729.05	3004.37
729.23	3033.04
729.41	2867.16
729.60	2979.79
729.78	2973.65
729.96	3117.01
730.14	2918.36
730.32	2752.47
730.51	3129.30
730.69	3028.95
730.87	2977.75
731.05	2797.53
731.23	3106.77
731.42	2940.88
731.60	2865.11
731.78	2846.68
731.96	2979.79
732.14	2850.77
732.32	2826.20
732.51	2836.44
732.69	3045.33
732.87	3043.28
733.05	2797.53
733.23	2867.16
733.42	2891.73
733.60	2947.03
733.78	3057.62
733.96	2904.02
734.14	3071.95
734.32	2856.92
734.51	2904.02
734.69	3059.67
734.87	2873.30
735.05	3342.28
735.23	2867.16
735.41	2815.96
735.60	2973.65
735.78	2963.41
735.96	2920.40
736.14	2981.84
736.32	2815.96
736.50	2934.74
736.68	2762.71
736.87	2942.93
737.05	2930.64
737.23	2918.36
737.41	2963.41
737.59	2883.54
737.77	2918.36
737.95	3016.66
738.14	3061.71
738.32	3082.19
738.50	3153.87
738.68	2926.55
738.86	3053.52
739.04	2875.35
739.22	3069.91
739.41	3037.14
739.59	2904.02
739.77	2920.40
739.95	3342.28
740.13	2813.91
740.31	2949.08
740.49	2865.11
740.67	2979.79
740.85	2895.83
741.04	3061.71
741.22	2940.88
741.40	2789.33
741.58	2922.45
741.76	2932.69
741.94	2967.51
742.12	2852.82
742.30	2834.39
742.48	2940.88
742.67	2705.37
742.85	2924.50
743.03	2879.44
743.21	2908.12
743.39	2850.77
743.57	3055.57
743.75	3016.66
743.93	2848.72
744.11	2713.56
744.29	2959.31
744.47	3049.43
744.65	2885.59
744.84	2813.91
745.02	2912.21
745.20	3033.04
745.38	2899.92
745.56	2856.92
745.74	2889.68
745.92	2949.08
746.10	2854.87
746.28	2734.04
746.46	2928.60
746.64	2867.16
746.82	2871.25
747.00	2938.84
747.18	3004.37
747.36	2854.87
747.55	2875.35
747.73	2717.65
747.91	2990.03
748.09	3094.48
748.27	2928.60
748.45	2895.83
748.63	3022.80
748.81	3112.91
748.99	2869.20
749.17	2719.70
749.35	2975.70
749.53	2930.64
749.71	3014.61
749.89	2879.44
750.07	2920.40
750.25	3078.10
750.43	2811.86
750.61	2850.77
750.79	2969.55
750.97	3102.67
751.15	3071.95
751.33	3014.61
751.51	2994.13
751.69	3174.35
751.87	2910.16
752.05	3020.75
752.23	2791.38
752.41	2811.86
752.59	2959.31
752.77	2858.96
752.95	2852.82
753.13	3076.05
753.31	2824.15
753.49	2971.60
753.67	2815.96
753.85	2959.31
754.03	2965.46
754.21	2795.48
754.39	2844.63
754.57	2787.29
754.75	2791.38
754.93	2922.45
755.11	2824.15
755.29	2824.15
755.47	2805.72
755.65	2824.15
755.83	3026.90
756.01	3039.19
756.19	2981.84
756.37	2736.09
756.55	2820.05
756.73	2947.03
756.91	2922.45
757.09	2738.13
757.27	2934.74
757.45	2850.77
757.63	2797.53
757.81	2834.39
757.99	2885.59
758.17	2793.43
758.35	2924.50
758.53	2783.19
758.71	2965.46
758.89	3100.62
759.07	2742.23
759.25	2820.05
759.43	2953.17
759.61	2850.77
759.79	2693.08
759.96	2869.20
760.14	3041.23
760.32	2686.94
760.50	2660.31
760.68	2543.58
760.86	2908.12
761.04	2961.36
761.22	2621.40
761.40	2877.40
761.58	2990.03
761.76	2863.06
761.94	2762.71
762.12	2717.65
762.30	2944.98
762.48	2895.83
762.65	2744.28
762.83	2822.10
763.01	2987.99
763.19	3061.71
763.37	2985.94
763.55	2901.97
763.73	3137.49
763.91	3074.00
764.09	2826.20
764.27	2936.79
764.45	2836.44
764.62	2787.29
764.80	2908.12
764.98	2822.10
765.16	2920.40
765.34	2906.07
765.52	2828.24
765.70	2863.06
765.88	2912.21
766.06	2944.98
766.24	2793.43
766.41	2879.44
766.59	2871.25
766.77	2824.15
766.95	2815.96
767.13	2836.44
767.31	3026.90
767.49	2895.83
767.67	2795.48
767.84	2764.76
768.02	3061.71
768.20	2922.45
768.38	2832.34
768.56	2830.29
768.74	2910.16
768.92	2996.18
769.10	2877.40
769.27	2885.59
769.45	2904.02
769.63	3037.14
769.81	2713.56
769.99	2729.94
770.17	2760.66
770.35	2904.02
770.52	2883.54
770.70	2906.07
770.88	2885.59
771.06	2815.96
771.24	2895.83
771.42	2871.25
771.59	2746.33
771.77	2934.74
771.95	2877.40
772.13	2877.40
772.31	3088.34
772.49	3123.15
772.66	2813.91
772.84	2924.50
773.02	3088.34
773.20	2979.79
773.38	2846.68
773.56	2766.81
773.73	3184.59
773.91	2891.73
774.09	2824.15
774.27	2838.48
774.45	3047.38
774.63	2854.87
774.80	2789.33
774.98	2719.70
775.16	3033.04
775.34	2926.55
775.52	2865.11
775.69	2826.20
775.87	3080.14
776.05	2953.17
776.23	2928.60
776.41	2846.68
776.58	2957.27
776.76	2990.03
776.94	2854.87
777.12	2818.00
777.30	3071.95
777.47	2852.82
777.65	2949.08
777.83	2756.57
778.01	2936.79
778.18	3123.15
778.36	2899.92
778.54	2844.63
778.72	2998.23
778.90	3012.56
779.07	2942.93
779.25	2748.37
779.43	3037.14
779.61	3102.67
779.78	2895.83
779.96	2856.92
780.14	2895.83
780.32	2924.50
780.49	3045.33
780.67	2709.46
780.85	2932.69
781.03	2912.21
781.20	2973.65
781.38	2879.44
781.56	3258.32
781.74	2990.03
781.91	2852.82
782.09	2779.09
782.27	2965.46
782.45	2949.08
782.62	2854.87
782.80	2961.36
782.98	3125.20
783.16	2963.41
783.33	2822.10
783.51	2803.67
783.69	3125.20
783.87	3076.05
784.04	2928.60
784.22	2973.65
784.40	2979.79
784.58	2985.94
784.75	2799.57
784.93	2822.10
785.11	2994.13
785.28	3061.71
785.46	2887.64
785.64	2854.87
785.82	3315.66
785.99	2922.45
786.17	2969.55
786.35	3051.47
786.52	3057.62
786.70	2940.88
786.88	3002.32
787.05	2926.55
787.23	3084.24
787.41	3186.64
787.59	2928.60
787.76	2955.22
787.94	3233.74
788.12	2783.19
788.29	2977.75
788.47	2959.31
788.65	3119.06
788.82	3002.32
789.00	2867.16
789.18	2981.84
789.35	3166.16
789.53	3016.66
789.71	2908.12
789.88	2856.92
790.06	3200.98
790.24	3106.77
790.41	2957.27
790.59	2981.84
790.77	3131.34
790.94	3229.65
791.12	2977.75
791.30	3041.23
791.47	3342.28
791.65	3088.34
791.83	3147.73
792.00	2998.23
792.18	3164.11
792.36	3221.45
792.53	3084.24
792.71	3223.50
792.89	3354.57
793.06	3381.20
793.24	3186.64
793.42	3155.92
793.59	3295.18
793.77	3291.09
793.94	3061.71
794.12	3106.77
794.30	3184.59
794.47	3166.16
794.65	3305.42
794.83	3127.25
795.00	3602.38
795.18	3358.67
795.36	3164.11
795.53	3246.03
795.71	3233.74
795.88	3213.26
796.06	3030.99
796.24	3207.12
796.41	3301.33
796.59	3344.33
796.76	3043.28
796.94	3254.22
797.12	3225.55
797.29	3495.88
797.47	3211.22
797.64	3196.88
797.82	3311.57
798.00	3536.84
798.17	3319.76
798.35	3321.81
798.52	3465.16
798.70	3225.55
798.88	3151.82
799.05	3235.79
799.23	3469.26
799.40	3459.02
799.58	3338.19
799.76	3321.81
799.93	3532.75
800.11	3405.77
800.28	3325.90
800.46	3526.60
800.63	3594.19
800.81	3418.06
800.99	3325.90
801.16	3348.43
801.34	3504.07
801.51	3301.33
801.69	3383.24
801.86	3354.57
802.04	3299.28
802.22	3633.10
802.39	3450.83
802.57	3344.33
802.74	3418.06
802.92	3385.29
803.09	3483.59
803.27	3381.20
803.44	3758.02
803.62	3618.76
803.79	3465.16
803.97	3508.17
804.15	3542.99
804.32	3450.83
804.50	3438.54
804.67	3524.55
804.85	3536.84
805.02	3585.99
805.20	3495.88
805.37	3528.65
805.55	3620.81
805.72	3594.19
805.90	3348.43
806.07	3389.39
806.25	3549.13
806.42	3710.92
806.60	3526.60
806.77	3413.96
806.95	3870.66
807.13	3764.17
807.30	3573.71
807.48	3602.38
807.65	3524.55
807.83	3663.82
808.00	3528.65
808.18	3581.90
808.35	3880.90
808.53	3706.82
808.70	3594.19
808.88	3524.55
809.05	3819.46
809.23	3680.20
809.40	3522.51
809.57	3551.18
809.75	3803.08
809.92	3923.91
810.10	3655.62
810.27	3626.95
810.45	3821.51
810.62	4014.02
810.80	3966.92
810.97	3895.24
811.15	4106.18
811.32	4108.23
811.50	3753.93
811.67	4065.22
811.85	3794.89
812.02	4186.05
812.20	3704.78
812.37	3690.44
812.55	3852.23
812.72	3801.03
812.89	3682.25
813.07	3766.21
813.24	3930.05
813.42	3858.37
813.59	3700.68
813.77	3721.16
813.94	4005.83
814.12	3801.03
814.29	3835.85
814.47	3712.97
814.64	3786.69
814.81	3831.75
814.99	3870.66
815.16	3733.45
815.34	3661.77
815.51	3940.29
815.69	3792.84
815.86	3837.89
816.03	3856.33
816.21	3776.45
816.38	3794.89
816.56	3768.26
816.73	3958.72
816.91	3999.68
817.08	3952.58
817.25	3643.34
817.43	3944.39
817.60	3989.44
817.78	3737.54
817.95	3841.99
818.12	4034.50
818.30	3934.15
818.47	3745.73
818.65	3788.74
818.82	3911.62
818.99	4026.31
819.17	3825.61
819.34	3696.58
819.52	3985.35
819.69	3885.00
819.86	3942.34
820.04	3893.19
820.21	3762.12
820.39	3913.67
820.56	3891.14
820.73	3672.01
820.91	4073.41
821.08	3893.19
821.25	3794.89
821.43	3852.23
821.60	3907.52
821.78	3960.77
821.95	3923.91
822.12	3925.96
822.30	4087.75
822.47	3956.68
822.64	3782.60
822.82	3891.14
822.99	3798.98
823.17	3983.30
823.34	3944.39
823.51	3784.65
823.69	4089.79
823.86	3880.90
824.03	3905.48
824.21	3813.32
824.38	3946.44
824.55	4059.07
824.73	4036.55
824.90	3950.53
825.07	3815.37
825.25	4317.12
825.42	3882.95
825.59	3911.62
825.77	3854.28
825.94	4091.84
826.11	4016.07
826.29	3839.94
826.46	4005.83
826.63	3948.48
826.81	3868.61
826.98	3966.92
827.15	3942.34
827.33	4016.07
827.50	3866.56
827.67	3905.48
827.85	4054.98
828.02	3948.48
828.19	3876.80
828.36	3768.26
828.54	4100.03
828.71	3889.09
828.88	3905.48
829.06	4001.73
829.23	4192.19
829.40	3850.18
829.58	3887.04
829.75	3858.37
829.92	4220.86
830.09	3893.19
830.27	4014.02
830.44	3928.00
830.61	4095.94
830.79	4147.14
830.96	4061.12
831.13	3944.39
831.30	3944.39
831.48	3932.10
831.65	3909.57
831.82	3755.97
832.00	4038.59
832.17	4044.74
832.34	3745.73
832.51	3694.54
832.69	3897.28
832.86	3887.04
833.03	3639.24
833.20	3661.77
833.38	4016.07
833.55	3934.15
833.72	3737.54
833.89	3809.22
834.07	3995.59
834.24	3999.68
834.41	3817.41
834.58	3764.17
834.76	3958.72
834.93	4089.79
835.10	3866.56
835.27	3813.32
835.45	3932.10
835.62	3821.51
835.79	3839.94
835.96	3661.77
836.14	3938.24
836.31	3848.13
836.48	3807.17
836.65	3688.39
836.83	4220.86
837.00	3997.64
837.17	3669.96
837.34	3661.77
837.51	3790.79
837.69	3987.40
837.86	3762.12
838.03	3717.06
838.20	3897.28
838.37	4044.74
838.55	3651.53
838.72	3672.01
838.89	3940.29
839.06	3968.96
839.23	3751.88
839.41	3708.87
839.58	3921.86
839.75	4085.70
839.92	3762.12
840.09	3782.60
840.27	4073.41
840.44	4134.85
840.61	3803.08
840.78	3665.86
840.95	4034.50
841.13	4091.84
841.30	3803.08
841.47	3749.83
841.64	4118.47
841.81	4042.69
841.98	3819.46
842.16	3758.02
842.33	4270.01
842.50	4048.83
842.67	3923.91
842.84	3672.01
843.01	4069.31
843.19	3946.44
843.36	3901.38
843.53	3798.98
843.70	4169.66
843.87	3938.24
844.04	3905.48
844.22	3790.79
844.39	4028.35
844.56	3973.06
844.73	3778.50
844.90	3774.41
845.07	3983.30
845.24	4036.55
845.42	3737.54
845.59	3913.67
845.76	4118.47
845.93	3798.98
846.10	3813.32
846.27	3733.45
846.44	3919.81
846.62	4097.99
846.79	3682.25
846.96	3694.54
847.13	4270.01
847.30	4106.18
847.47	3753.93
847.64	3721.16
847.81	4024.26
847.98	4036.55
848.16	3661.77
848.33	3805.13
848.50	3891.14
848.67	3968.96
848.84	3672.01
849.01	3672.01
849.18	3911.62
849.35	3874.76
849.52	3790.79
849.70	3729.35
849.87	4134.85
850.04	4022.21
850.21	3790.79
850.38	3612.62
850.55	3948.48
850.72	3956.68
850.89	3684.30
851.06	3788.74
851.23	4054.98
851.40	3938.24
851.57	3760.07
851.75	3669.96
851.92	3858.37
852.09	3819.46
852.26	3635.14
852.43	3710.92
852.60	4073.41
852.77	4061.12
852.94	3696.58
853.11	3807.17
853.28	3964.87
853.45	3704.78
853.62	3727.30
853.79	3710.92
853.96	4104.13
854.13	3934.15
854.30	3684.30
854.48	3471.31
854.65	3915.72
854.82	3911.62
854.99	3655.62
855.16	3575.75
855.33	3792.84
855.50	3889.09
855.67	3600.33
855.84	3532.75
856.01	3864.52
856.18	3819.46
856.35	3626.95
856.52	3596.23
856.69	3975.11
856.86	3932.10
857.03	3743.69
857.20	3538.89
857.37	3973.06
857.54	3946.44
857.71	3635.14
857.88	3624.90
858.05	3952.58
858.22	3885.00
858.39	3753.93
858.56	3624.90
858.73	3764.17
858.90	3995.59
859.07	3581.90
859.24	3604.42
859.41	3694.54
859.58	3846.09
859.75	3430.35
859.92	3727.30
860.09	3932.10
860.26	3907.52
860.43	3497.93
860.60	3442.64
860.77	3856.33
860.94	3938.24
861.11	3514.31
861.28	3555.27
861.45	3780.55
861.62	3827.65
861.79	3635.14
861.96	3499.98
862.13	3874.76
862.30	3792.84
862.47	3547.08
862.64	3559.37
862.81	3766.21
862.98	3776.45
863.15	3612.62
863.32	3485.64
863.49	4038.59
863.66	3856.33
863.82	3465.16
863.99	3614.66
864.16	3880.90
864.33	3864.52
864.50	3485.64
864.67	3547.08
864.84	3831.75
865.01	3815.37
865.18	3442.64
865.35	3518.41
865.52	3768.26
865.69	3911.62
865.86	3479.50
866.03	3610.57
866.20	3770.31
866.37	3633.10
866.54	3508.17
866.70	3485.64
866.87	3868.61
867.04	3723.21
867.21	3377.10
867.38	3452.88
867.55	3747.78
867.72	3717.06
867.89	3618.76
868.06	3524.55
868.23	3850.18
868.40	3737.54
868.56	3432.40
868.73	3471.31
868.90	3575.75
869.07	3739.59
869.24	3418.06
869.41	3420.11
869.58	3483.59
869.75	3553.23
869.92	3547.08
870.09	3428.30
870.25	3925.96
870.42	3641.29
870.59	3518.41
870.76	3418.06
870.93	3614.66
871.10	3596.23
871.27	3338.19
871.44	3563.47
871.60	3807.17
871.77	3786.69
871.94	3512.27
872.11	3358.67
872.28	3692.49
872.45	3809.22
872.62	3346.38
872.79	3420.11
872.95	3743.69
873.12	3739.59
873.29	3430.35
873.46	3551.18
873.63	3704.78
873.80	3532.75
873.96	3426.25
874.13	3424.20
874.30	3743.69
874.47	3819.46
874.64	3352.52
874.81	3407.82
874.98	3475.40
875.14	3641.29
875.31	3346.38
875.48	3299.28
875.65	3657.67
875.82	3702.73
875.99	3354.57
876.15	3352.52
876.32	3852.23
876.49	3674.06
876.66	3413.96
876.83	3393.48
876.99	3690.44
877.16	3551.18
877.33	3377.10
877.50	3422.16
877.67	3518.41
877.83	3545.03
878.00	3280.85
878.17	3293.13
878.34	3522.51
878.51	3678.15
878.68	3346.38
878.84	3309.52
879.01	3585.99
879.18	3776.45
879.35	3276.75
879.51	3379.15
879.68	3825.61
879.85	3512.27
880.02	3147.73
880.19	3319.76
880.35	3545.03
880.52	3641.29
880.69	3348.43
880.86	3254.22
881.02	3545.03
881.19	3526.60
881.36	3221.45
881.53	3350.48
881.70	3637.19
881.86	3598.28
882.03	3344.33
882.20	3108.82
882.37	3512.27
882.53	3696.58
882.70	3266.51
882.87	3241.93
883.04	3565.51
883.20	3618.76
883.37	3243.98
883.54	3278.80
883.71	3559.37
883.87	3487.69
884.04	3313.61
884.21	3100.62
884.38	3786.69
884.54	3745.73
884.71	3243.98
884.88	3114.96
885.05	3669.96
885.21	3645.38
885.38	3276.75
885.55	3233.74
885.71	3532.75
885.88	3411.92
886.05	3299.28
886.22	3119.06
886.38	3411.92